Folder: pistachio/data/refractive_index_data/filmetrics

Note: data/refractive_index_data/filmetrics/PbSe_index.txt
Wavelength(nm)	n	k
229.63	0.953	2.014
233.96	0.953	2.028
238.46	0.958	2.057
243.14	0.97	2.103
248	0.989	2.153
253.06	1.016	2.21
258.33	1.043	2.266
263.83	1.083	2.335
269.57	1.125	2.401
275.56	1.172	2.462
281.82	1.219	2.518
288.37	1.261	2.564
295.24	1.295	2.62
302.44	1.322	2.69
310	1.355	2.784
317.95	1.397	2.89
326.32	1.448	2.991
335.14	1.514	3.118
344.44	1.588	3.243
354.29	1.682	3.387
364.71	1.805	3.564
375.76	1.967	3.749
387.5	2.203	3.949
400	2.497	4.111
413.33	2.861	4.223
420.34	3.061	4.251
427.59	3.292	4.26
435.09	3.494	4.239
442.86	3.716	4.195
450.91	3.928	4.121
459.26	4.12	4.021
467.92	4.307	3.89
476.92	4.459	3.752
486.27	4.586	3.597
496	4.707	3.437
506.12	4.796	3.271
516.67	4.866	3.132
527.66	4.918	2.981
539.13	4.956	2.836
551.11	4.979	2.699
563.64	4.99	2.56
576.74	4.988	2.435
590.48	4.982	2.323
604.88	4.964	2.217
620	4.951	2.127
635.9	4.931	2.048
652.63	4.909	1.985
670.27	4.886	1.938
688.89	4.879	1.905
708.57	4.875	1.893
729.41	4.902	1.884
751.52	4.962	1.876
775	5.045	1.865
800	5.156	1.736
826.67	5.204	1.587
855.17	5.229	1.463
885.71	5.215	1.322
918.52	5.192	1.212
953.85	5.163	1.146
992	5.129	1.037
1033.33	5.122	0.981
1055.32	5.108	0.952
1078.26	5.089	0.93
2610.53	4.88	0.291

Note: data/refractive_index_data/filmetrics/trans_Air_Au100nm_Air.txt
Wavelength (nm)	Transmittance
210	0.000357
211	0.0003524
212	0.000348
213	0.0003444
214	0.0003416
215	0.0003412
216	0.0003408
217	0.0003406
218	0.000339
219	0.000336
220	0.0003333
221	0.0003307
222	0.0003301
223	0.0003307
224	0.000331
225	0.0003311
226	0.0003289
227	0.000325
228	0.0003209
229	0.0003166
230	0.0003132
231	0.0003114
232	0.0003094
233	0.0003074
234	0.0003052
235	0.0003011
236	0.0002971
237	0.0002928
238	0.0002885
239	0.0002848
240	0.0002815
241	0.0002782
242	0.0002748
243	0.0002715
244	0.0002678
245	0.0002642
246	0.00026
247	0.0002553
248	0.0002505
249	0.0002431
250	0.000236
251	0.0002291
252	0.0002225
253	0.0002161
254	0.0002119
255	0.0002079
256	0.0002045
257	0.000202
258	0.0001995
259	0.0001981
260	0.0001971
261	0.0001962
262	0.0001958
263	0.0001954
264	0.0001948
265	0.0001937
266	0.0001926
267	0.0001917
268	0.000191
269	0.0001904
270	0.0001902
271	0.0001907
272	0.0001911
273	0.0001917
274	0.0001926
275	0.0001935
276	0.0001943
277	0.000195
278	0.0001957
279	0.0001966
280	0.0001979
281	0.0001991
282	0.0002006
283	0.000203
284	0.0002054
285	0.0002079
286	0.0002109
287	0.0002139
288	0.000217
289	0.0002199
290	0.0002228
291	0.0002257
292	0.0002288
293	0.0002324
294	0.0002361
295	0.0002398
296	0.0002448
297	0.0002503
298	0.0002559
299	0.0002617
300	0.0002684
301	0.0002752
302	0.0002822
303	0.0002895
304	0.0002971
305	0.000305
306	0.0003129
307	0.0003217
308	0.0003308
309	0.00034
310	0.0003495
311	0.0003598
312	0.0003704
313	0.0003811
314	0.0003923
315	0.0004048
316	0.0004177
317	0.0004309
318	0.0004446
319	0.0004612
320	0.0004783
321	0.0004959
322	0.000514
323	0.0005331
324	0.0005528
325	0.0005731
326	0.0005941
327	0.0006141
328	0.0006341
329	0.0006547
330	0.0006757
331	0.000697
332	0.0007182
333	0.0007399
334	0.0007622
335	0.000785
336	0.0008083
337	0.0008322
338	0.0008566
339	0.0008816
340	0.0009066
341	0.0009307
342	0.0009554
343	0.0009805
344	0.0010062
345	0.0010297
346	0.0010518
347	0.0010743
348	0.0010972
349	0.0011204
350	0.0011417
351	0.0011625
352	0.0011836
353	0.001205
354	0.0012266
355	0.0012473
356	0.001268
357	0.0012888
358	0.0013099
359	0.0013312
360	0.0013498
361	0.0013668
362	0.0013838
363	0.001401
364	0.0014183
365	0.0014322
366	0.001439
367	0.0014458
368	0.0014527
369	0.0014595
370	0.0014663
371	0.001472
372	0.0014774
373	0.0014829
374	0.0014883
375	0.0014938
376	0.0015011
377	0.0015131
378	0.0015252
379	0.0015373
380	0.0015494
381	0.0015616
382	0.0015753
383	0.0015907
384	0.0016062
385	0.0016217
386	0.0016373
387	0.001653
388	0.0016695
389	0.0016869
390	0.0017044
391	0.001722
392	0.0017397
393	0.0017574
394	0.0017767
395	0.0017982
396	0.0018199
397	0.0018418
398	0.0018638
399	0.001886
400	0.0019086
401	0.0019364
402	0.0019644
403	0.0019928
404	0.0020214
405	0.0020503
406	0.0020795
407	0.0021113
408	0.0021459
409	0.002181

Note: ReadMe.md
Name: Pistachio
Author: Garrek Stemo
Date Created: July 5, 2019

Pistachio is a ray transfer matrix program. That's about it for now.

File: trans_SiO2_Au10nm_Air10000nm_Au10nm_SiO2.txt
Wavelength (nm)	Transmittance
210	0.1613288
218	0.2398222
226	0.1485169
234	0.1378858
242	0.1843224
250	0.224325
258	0.1249093
266	0.1305776
274	0.208503
282	0.225789
290	0.215375
298	0.1509675
306	0.0948385
314	0.1565162
322	0.1730942
330	0.1405314
338	0.167632
346	0.2580616
354	0.1421013
362	0.1630951
370	0.257848
378	0.3182434
386	0.2978182
394	0.2734401
402	0.2735999
410	0.2999626
418	0.3428162
426	0.3568103
434	0.294007
442	0.2246761
450	0.2192896
458	0.3220506
466	0.4607007
474	0.3261194
482	0.3290917
490	0.5562284
498	0.412947
506	0.4409607
514	0.6201109
522	0.3916248
530	0.69374
538	0.395289
546	0.6257369
554	0.4055991
562	0.5749749
570	0.4053174
578	0.6229133
586	0.390177
594	0.7574549
602	0.3701367
610	0.8259111
618	0.4017341
626	0.59874
634	0.6015356
642	0.4087005
650	0.864482
658	0.4161064
666	0.452463
674	0.7867438
682	0.2966911
690	0.4268918
698	0.6787906
706	0.2324442
714	0.3366032
722	0.7490768
730	0.209638
738	0.2170211
746	0.7882828
754	0.2627024
762	0.1473969
770	0.310721
778	0.6495067
786	0.1572219
794	0.1280071
802	0.3523155
810	0.5133723
818	0.1285494
826	0.1030918
834	0.2413712
842	0.7068738
850	0.1451016
858	0.0843637
866	0.1201553
874	0.4955976
882	0.3276298
890	0.0951778
898	0.0712178
906	0.1139142
914	0.494179
922	0.31146
930	0.0868998
938	0.0585732
946	0.074953
954	0.2096067
962	0.690981
970	0.1326187
978	0.0589168
986	0.0493814
994	0.0703116
1002	0.2032526
1010	0.6878542
1018	0.1338128
1026	0.0554267
1034	0.0411485
1042	0.0469835
1050	0.0881979
1058	0.3692236
1066	0.3677625
1074	0.0824023
1082	0.040526
1090	0.0315403
1098	0.0351579
1106	0.0582874
1114	0.1809682
1122	0.6501525
1130	0.1189331
1138	0.0441439
1146	0.0275099
1154	0.0238848
1162	0.0276265
1170	0.0443955
1178	0.1193647
1186	0.6338157
1194	0.1659038
1202	0.0506653
1210	0.0275043
1218	0.0206737
1226	0.0197807
1234	0.0237185
1242	0.0373364
1250	0.08843
1258	0.3983268
1266	0.3361357
1274	0.0861181
1282	0.0408159
1290	0.0273121
1298	0.0228862
1306	0.0229326
1314	0.0271592
1322	0.0388069
1330	0.0710056
1338	0.1900508
1346	0.6138881
1354	0.2641891
1362	0.0941314
1370	0.0504331
1378	0.0348565
1386	0.0279316
1394	0.0258498
1402	0.0272744
1410	0.0329329
1418	0.0465408
1426	0.0811634
1434	0.1934262
1442	0.5585161
1450	0.3323157
1458	0.1165581
1466	0.0573984
1474	0.0361087
1482	0.0268332
1490	0.0226263
1498	0.0212295
1506	0.0219982
1514	0.0252281
1522	0.0324289
1530	0.0480717
1538	0.0869783
1546	0.211688
1554	0.5510923
1562	0.2946747
1570	0.1076622
1578	0.0537597
1586	0.0334597
1594	0.024154
1602	0.0194586
1610	0.0171317
1618	0.0163032
1626	0.0166935
1634	0.0184039
1642	0.021982
1650	0.0288393
1658	0.0426385
1666	0.0745161
1674	0.166917
1682	0.4499827
1690	0.3721787
1698	0.1348164
1706	0.0628144
1714	0.0366976
1722	0.024914
1730	0.0188135
1738	0.0154155
1746	0.0135077
1754	0.0125509
1762	0.0123097
1770	0.0127228
1778	0.0138807
1786	0.0160425
1794	0.0197928
1802	0.0264266
1810	0.0390888
1818	0.0667435
1826	0.1406823
1834	0.3627673
1842	0.4177732
1850	0.163303
1858	0.0730466
1866	0.0407997
1874	0.0265022
1882	0.019114
1890	0.0148966
1898	0.0123401
1906	0.0107551
1914	0.0097954
1922	0.0092842
1930	0.0091366
1938	0.0093248
1946	0.0098747
1954	0.010868
1962	0.0124725
1970	0.0150081
1978	0.0191054
1986	0.0260872
1994	0.0390861
2002	0.0667266
2010	0.1373338
2018	0.3314211
2026	0.3960666
2034	0.1695187
2042	0.0769137
2050	0.0425963
2058	0.0271951
2066	0.0191624
2074	0.0145128
2082	0.0116215
2090	0.0097341
2098	0.0084682
2106	0.0076127
2114	0.0070481
2122	0.0067046
2130	0.0065425
2138	0.0065447
2146	0.0067087
2154	0.0070499
2162	0.0076025
2170	0.0084272
2178	0.0096285
2186	0.0113849
2194	0.0140108
2202	0.0180996
2210	0.0248656
2218	0.0370613
2226	0.061878
2234	0.1210393
2242	0.2724441
2250	0.3798895
2258	0.1906045
2266	0.0872322
2274	0.0474044
2282	0.029565
2290	0.0203179
2298	0.0149824
2306	0.0116533
2314	0.0094543
2322	0.0079398
2330	0.0068651
2338	0.0060879
2346	0.0055202
2354	0.0051073
2362	0.004814
2370	0.0046175
2378	0.0045025
2386	0.0044613
2394	0.0044907
2400	0.0045595

File: trans_SiO2_Au100nm_SiO2.txt
Wavelength (nm)	Transmittance
210	0.0004447
218	0.0004269
226	0.0004185
234	0.0003928
242	0.0003582
250	0.0003119
258	0.0002676
266	0.0002617
274	0.0002646
282	0.0002778
290	0.0003105
298	0.0003579
306	0.0004381
314	0.0005486
322	0.0007162
330	0.0009368
338	0.0011821
346	0.0014461
354	0.0016832
362	0.0018978
370	0.002015
378	0.0021018
386	0.0022597
394	0.0024549
402	0.002715
410	0.0030606
418	0.0035015
426	0.0040594
434	0.0047604
442	0.0056599
450	0.006889
458	0.0084229
466	0.0102657
474	0.0122378
482	0.0142522
490	0.0158725
498	0.0163964
506	0.0152525
514	0.0130266
522	0.0105128
530	0.0082116
538	0.0063511
546	0.005085
554	0.0042132
562	0.0036652
570	0.0035925
578	0.0036507
586	0.0038552
594	0.0040245
602	0.0041453
610	0.0042681
618	0.0043916
626	0.0046662
634	0.0050026
642	0.00504
650	0.0049865
658	0.0042468
666	0.0033829
674	0.0026537
682	0.0020472
690	0.0016055
698	0.0013496
706	0.0011383
714	0.0009823
722	0.0008574
730	0.0007518
738	0.0006755
746	0.0006082
754	0.0005508
762	0.0005042
770	0.0004623
778	0.0004244
786	0.0003903
794	0.0003594
802	0.0003324
810	0.0003102
818	0.0002899
826	0.0002711
834	0.0002588
842	0.0002476
850	0.000237
858	0.0002274
866	0.0002189
874	0.0002108
882	0.0002031
890	0.0001949
898	0.0001864
906	0.0001783
914	0.0001708
922	0.0001638
930	0.0001575
938	0.0001515
946	0.0001458
954	0.0001404
962	0.0001372
970	0.0001341
978	0.0001311
986	0.0001281
994	0.0001252
1002	0.0001221
1010	0.0001191
1018	0.0001162
1026	0.0001134
1034	0.0001105
1042	0.000106
1050	0.0001016
1058	9.75e-05
1066	9.37e-05
1074	9e-05
1082	8.66e-05
1090	8.34e-05
1098	8.03e-05
1106	7.75e-05
1114	7.47e-05
1122	7.21e-05
1130	6.97e-05
1138	6.74e-05
1146	6.53e-05
1154	6.33e-05
1162	6.13e-05
1170	5.95e-05
1178	5.77e-05
1186	5.69e-05
1194	5.67e-05
1202	5.65e-05
1210	5.63e-05
1218	5.61e-05
1226	5.59e-05
1234	5.57e-05
1242	5.64e-05
1250	5.98e-05
1258	6.33e-05
1266	6.7e-05
1274	7.08e-05
1282	7.49e-05
1290	7.91e-05
1298	8.34e-05
1306	8.8e-05
1314	9.24e-05
1322	9.7e-05
1330	0.0001018
1338	0.0001067
1346	0.0001118
1354	0.0001171
1362	0.0001226
1370	0.0001283
1378	0.0001338
1386	0.0001336
1394	0.0001333
1402	0.000133
1410	0.0001327
1418	0.0001324
1426	0.0001321
1434	0.0001319
1442	0.0001316
1450	0.0001313
1458	0.000131
1466	0.0001293
1474	0.0001276
1482	0.0001259
1490	0.0001242
1498	0.0001226
1506	0.000121
1514	0.0001195
1522	0.0001179
1530	0.0001164
1538	0.000115
1546	0.0001135
1554	0.0001123
1562	0.0001112
1570	0.0001102
1578	0.0001092
1586	0.0001081
1594	0.0001071
1602	0.0001062
1610	0.0001052
1618	0.0001042
1626	0.0001033
1634	0.0001024
1642	0.0001014
1650	0.0001005
1658	9.96e-05
1666	9.87e-05
1674	9.78e-05
1682	9.69e-05
1690	9.61e-05
1698	9.52e-05
1706	9.44e-05
1714	9.35e-05
1722	9.27e-05
1730	9.19e-05
1738	9.11e-05
1746	9.03e-05
1754	8.95e-05
1762	8.88e-05
1770	8.8e-05
1778	8.73e-05
1786	8.67e-05
1794	8.61e-05
1802	8.55e-05
1810	8.49e-05
1818	8.43e-05
1826	8.37e-05
1834	8.31e-05
1842	8.25e-05
1850	8.19e-05
1858	8.13e-05
1866	8.08e-05
1874	8.02e-05
1882	7.96e-05
1890	7.91e-05
1898	7.85e-05
1906	7.8e-05
1914	7.75e-05
1922	7.69e-05
1930	7.64e-05
1938	7.59e-05
1946	7.54e-05
1954	7.48e-05
1962	7.43e-05
1970	7.38e-05
1978	7.33e-05
1986	7.28e-05
1994	7.24e-05
2002	7.19e-05
2010	7.14e-05
2018	7.09e-05
2026	7.05e-05
2034	7e-05
2042	6.95e-05
2050	6.91e-05
2058	6.86e-05
2066	6.82e-05
2074	6.77e-05
2082	6.73e-05
2090	6.69e-05
2098	6.64e-05
2106	6.6e-05
2114	6.56e-05
2122	6.52e-05
2130	6.48e-05
2138	6.43e-05
2146	6.39e-05
2154	6.35e-05
2162	6.31e-05
2170	6.27e-05
2178	6.23e-05
2186	6.2e-05
2194	6.16e-05
2202	6.12e-05
2210	6.08e-05
2218	6.04e-05
2226	6.01e-05
2234	5.97e-05
2242	5.93e-05
2250	5.9e-05
2258	5.86e-05
2266	5.83e-05
2274	5.8e-05
2282	5.76e-05
2290	5.73e-05
2298	5.7e-05
2306	5.67e-05
2314	5.64e-05
2322	5.6e-05
2330	5.57e-05
2338	5.54e-05
2346	5.51e-05
2354	5.48e-05
2362	5.45e-05
2370	5.42e-05
2378	5.39e-05
2386	5.36e-05
2394	5.33e-05
2400	5.31e-05