Folder: pistachio/data/filmetrics

Note: ReadMe.md
Name: Pistachio
Author: Garrek Stemo
Date Created: July 5, 2019

Pistachio is a ray transfer matrix program. That's about it for now.

File: reflectance_sio2.txt.tsv
Wavelength (nm)	Reflectance
200	0.1174196
207	0.0787959
214	0.0386295
221	0.0097798
228	6.2e-06
235	0.0073615
242	0.0261637
249	0.0503484
256	0.0750492
263	0.0972352
270	0.1153339
277	0.1287628
284	0.13754
291	0.1420166
298	0.142672
305	0.1400617
312	0.1347664
319	0.1272919
326	0.11818
333	0.1079132
340	0.0969034
347	0.0855052
354	0.0740946
361	0.0629614
368	0.0523603
375	0.0425069
382	0.0335816
389	0.0256325
396	0.018741
403	0.0129659
410	0.0083117
417	0.0047381
424	0.0022061
431	0.000664
438	2.65e-05
445	0.0002161
452	0.0011487
459	0.00274
466	0.0048968
473	0.0075476
480	0.0106031
487	0.0139992
494	0.0176694
501	0.0215512
508	0.0255859
515	0.0297402
522	0.0339531
529	0.0381997
536	0.0424428
543	0.0466616
550	0.0508245
557	0.0549168
564	0.0589222
571	0.0628271
578	0.0666204
585	0.0702978
592	0.0738459
599	0.0772623
606	0.0805527
613	0.0837048
620	0.0867182
627	0.0895946
634	0.0923497
641	0.0949562
648	0.0974368
655	0.0997915
662	0.1020197
669	0.10412
676	0.1061133
683	0.1079757
690	0.1097292
697	0.1113832
704	0.1129315
711	0.1143776
718	0.1157252
725	0.1169624
732	0.1181071
739	0.1191792
746	0.1201667
753	0.1210729
760	0.121901
767	0.1226793
774	0.1233722
781	0.1239857
788	0.1245333
795	0.1250179
802	0.1254422
809	0.1258089
816	0.1261443
823	0.1264197
830	0.1266289
837	0.1268189
844	0.1269471
851	0.1270193
858	0.1270499
865	0.1270621
872	0.1270369
879	0.1269544
886	0.1268638
893	0.1267454
900	0.1265963
907	0.1263871
914	0.1261678
921	0.125931
928	0.1256424
935	0.1253524
942	0.1250488
949	0.124724
956	0.124352
963	0.1239698
970	0.1235876
977	0.1231885
984	0.122755
991	0.1222971
998	0.1218523
1005	0.121394
1012	0.120923
1019	0.1204401
1026	0.1199185
1033	0.1193956
1040	0.1188811
1047	0.1183574
1054	0.1178251
1061	0.1172848
1068	0.1167371
1075	0.1161597
1082	0.1155759
1089	0.115009
1096	0.1144366
1103	0.1138592
1110	0.1132772
1117	0.1126911
1124	0.1121012
1131	0.1115033
1138	0.1108756
1145	0.1102676
1152	0.1096662
1159	0.1090627
1166	0.1084574
1173	0.1078506
1180	0.1072426
1187	0.1066336
1194	0.1060238
1201	0.1054091
1208	0.1047681
1215	0.1041489
1222	0.1035385
1229	0.1029284
1236	0.1023188
1243	0.1017099
1250	0.1011018
1257	0.1004948
1264	0.0998888
1271	0.0992799
1278	0.0986473
1285	0.0980374
1292	0.0974375
1299	0.0968394
1306	0.0962432
1313	0.0956489
1320	0.0950568
1327	0.0944668
1334	0.0938791
1341	0.0932938
1348	0.0927108
1355	0.0921103
1362	0.0915126
1369	0.0909375
1376	0.0903651
1383	0.0897955
1390	0.0892287
1397	0.0886647
1404	0.0881036
1411	0.0875415
1418	0.0869594
1425	0.0863997
1432	0.0858507
1439	0.0853049
1446	0.0847621
1453	0.0842225
1460	0.083686
1467	0.0831527
1474	0.0826226
1481	0.0820921
1488	0.0815427
1495	0.0810151
1502	0.0804982
1509	0.0799845
1516	0.0794741
1523	0.078967
1530	0.0784631
1537	0.0779377
1544	0.07743
1551	0.0769363
1558	0.0764458
1565	0.0759586
1572	0.0754748
1579	0.0749942
1586	0.0744964
1593	0.0740088
1600	0.0735383
1607	0.073071
1614	0.0726071
1621	0.0721463
1628	0.0716888
1635	0.0712181
1642	0.0707507
1649	0.070303
1656	0.0698586
1663	0.0694174
1670	0.0689794
1677	0.068522
1684	0.0680809
1691	0.0676525
1698	0.0672272
1705	0.0667893
1712	0.0663547
1719	0.0659388
1726	0.0655261
1733	0.0651164
1740	0.0647097
1747	0.0642847
1754	0.063875
1761	0.0634775
1768	0.0630829
1775	0.0626764
1782	0.0622729
1789	0.0618873
1796	0.0615045
1803	0.0611159
1810	0.0607186
1817	0.0603445
1824	0.0599733
1831	0.059602
1838	0.0592164
1845	0.058848
1852	0.0584879
1859	0.0581306
1866	0.0577593
1873	0.0573964
1880	0.0570473
1887	0.0567008
1894	0.0563461
1901	0.0559886
1908	0.0556501
1915	0.0553007
1922	0.054954
1929	0.0546232
1936	0.0542792
1943	0.053943
1950	0.0536198
1957	0.0532991
1964	0.0529705
1971	0.0526392
1978	0.0523259
1985	0.0520021
1992	0.0516809
1999	0.0513748
2000	0.0513312

File: reflectance_SiO2_100_Au_35_Air_5000.txt.tsv
Wavelength (nm)	Reflectance
200	0.1973953
203	0.1691821
206	0.1809788
209	0.1702643
212	0.1100064
215	0.1175113
218	0.1148095
221	0.0721879
224	0.1123845
227	0.0648349
230	0.0869601
233	0.0869098
236	0.0923102
239	0.1305794
242	0.1156292
245	0.1742891
248	0.1506261
251	0.2100156
254	0.196564
257	0.2272631
260	0.2458716
263	0.2407634
266	0.3057903
269	0.2737143
272	0.3685134
275	0.3159159
278	0.3229601
281	0.3732447
284	0.339949
287	0.4084931
290	0.382772
293	0.3614645
296	0.4544124
299	0.3966532
302	0.3765683
305	0.4720041
308	0.4092169
311	0.3851052
314	0.4682811
317	0.4251523
320	0.3895157
323	0.4142755
326	0.4593112
329	0.3943741
332	0.3809536
335	0.4896021
338	0.4184817
341	0.3758875
344	0.3826577
347	0.5053289
350	0.3994909
353	0.3640848
356	0.3764778
359	0.4991118
362	0.4017726
365	0.3556956
368	0.3609034
371	0.4384277
374	0.45796
377	0.3588535
380	0.3466784
383	0.3712327
386	0.4781453
389	0.4134993
392	0.3368683
395	0.3323427
398	0.3587359
401	0.4527255
404	0.4307401
407	0.3182874
410	0.3057146
413	0.3224101
416	0.3764874
419	0.4845769
422	0.3384554
425	0.272854
428	0.2727138
431	0.2961546
434	0.3552782
437	0.4611357
440	0.3220815
443	0.2292079
446	0.226855
449	0.2509578
452	0.2992126
455	0.3881369
458	0.4278955
461	0.2177553
464	0.1682996
467	0.1910498
470	0.2343158
473	0.2948859
476	0.3782391
479	0.4419501
482	0.2300602
485	0.1184533
488	0.1726087
491	0.2485479
494	0.3256255
497	0.4055535
500	0.486524
503	0.5147195
506	0.2169324
509	0.1310756
512	0.2850465
515	0.4014501
518	0.4874813
521	0.5566829
524	0.6176311
527	0.6669298
530	0.6277961
533	0.1186255
536	0.3326145
539	0.5266481
542	0.6133325
545	0.6671093
548	0.7074988
551	0.741436
554	0.7673327
557	0.7811793
560	0.6613938
563	0.1175345
566	0.5279035
569	0.658175
572	0.7143037
575	0.7481564
578	0.7720432
581	0.7905773
584	0.8065739
587	0.8187003
590	0.8139641
593	0.6743475
596	0.0501771
599	0.5127497
602	0.6781778
605	0.7409614
608	0.7734888
611	0.7947949
614	0.8107092
617	0.823487
620	0.8336634
623	0.8386672
626	0.8307087
629	0.7594232
632	0.2990148
635	0.2283241
638	0.5911063
641	0.7117983
644	0.7642681
647	0.7936495
650	0.813038
653	0.8277226
656	0.8415057
659	0.8525933
662	0.8611734
665	0.8657429
668	0.8588647
671	0.7979667
674	0.3321555
677	0.3540736
680	0.7031096
683	0.7960092
686	0.8345563
689	0.8558823
692	0.8687522
695	0.8783365
698	0.8860769
701	0.892706
704	0.8986264
707	0.9040354
710	0.9086705
713	0.9117307
716	0.9088038
719	0.863718
722	0.2313328
725	0.6199201
728	0.8097302
731	0.8569643
734	0.8771108
737	0.8885729
740	0.8962631
743	0.9020209
746	0.9066829
749	0.9106877
752	0.9142761
755	0.9175683
758	0.9207625
761	0.9239429
764	0.9271341
767	0.9301393
770	0.9316131
773	0.9216848
776	0.743805
779	0.4744679
782	0.816886
785	0.8730202
788	0.8935018
791	0.9042024
794	0.9110068
797	0.9159037
800	0.9197333
803	0.9227612
806	0.925398
809	0.9277837
812	0.9300111
815	0.9321521
818	0.9342673
821	0.9364131
824	0.9386462
827	0.9409883
830	0.9433154
833	0.945503
836	0.9452298
839	0.9170332
842	0.1675628
845	0.7821707
848	0.8782047
851	0.9032993
854	0.9144701
857	0.9208192
860	0.9250085
863	0.9280754
866	0.9304879
869	0.9324901
872	0.9342253
875	0.9357811
878	0.937216
881	0.9385725
884	0.9398842
887	0.9412159
890	0.9425974
893	0.9440192
896	0.9455158
899	0.947129
902	0.9489097
905	0.9509018
908	0.9530608
911	0.9547087
914	0.949504
917	0.8016327
920	0.6410989
923	0.8708046
926	0.9074689
929	0.9209962
932	0.928008
935	0.9323735
938	0.9354242
941	0.9377325
944	0.9395832
947	0.9411341
950	0.9424795
953	0.943682
956	0.9446931
959	0.9456068
962	0.9464715
965	0.9473047
968	0.9481215
971	0.948935
974	0.949758
977	0.9506045
980	0.9514901
983	0.9524361
986	0.9534647
989	0.9546078
992	0.955906
995	0.9574149
998	0.9591667
1000	0.9604262

File: reflectance_sio2_100_au_35_x2_air_1000.txt.tsv
Wavelength (nm)	Reflectance
200	0.1945058
203	0.2059952
206	0.2133689
209	0.1648708
212	0.1219783
215	0.0954316
218	0.0796441
221	0.0738032
224	0.0805299
227	0.1100282
230	0.1262473
233	0.1112064
236	0.1032563
239	0.1044538
242	0.1110123
245	0.1218435
248	0.1381205
251	0.1659348
254	0.2170944
257	0.2837607
260	0.2983605
263	0.2905646
266	0.2895309
269	0.294068
272	0.3007569
275	0.3082523
278	0.3164247
281	0.3253505
284	0.3359936
287	0.3535786
290	0.3892838
293	0.4387778
296	0.4577008
299	0.4468891
302	0.4325558
305	0.4213304
308	0.412754
311	0.4058666
314	0.4000303
317	0.3945963
320	0.3893843
323	0.3851089
326	0.3829103
329	0.3850483
332	0.3939806
335	0.413732
338	0.4469447
341	0.4854318
344	0.5048566
347	0.4923021
350	0.4625001
353	0.432114
356	0.4070774
359	0.3877294
362	0.3734018
365	0.362842
368	0.3562763
371	0.3520625
374	0.3499104
377	0.3491353
380	0.34955
383	0.3515122
386	0.3552282
389	0.3610493
392	0.3694501
395	0.3810799
398	0.3967014
401	0.41706
404	0.4418212
407	0.4682097
410	0.4883818
413	0.4910385
416	0.4684967
419	0.4270584
422	0.3805052
425	0.3389977
428	0.3059537
431	0.2804795
434	0.2613217
437	0.2465171
440	0.2351716
443	0.2267016
446	0.220079
449	0.2157251
452	0.2134826
455	0.2133855
458	0.2152365
461	0.2189547
464	0.2244794
467	0.2317077
470	0.242287
473	0.2553579
476	0.2701235
479	0.290107
482	0.3133369
485	0.338098
488	0.3659142
491	0.3957273
494	0.425761
497	0.4560873
500	0.486524
503	0.5150238
506	0.5403658
509	0.5611697
512	0.574781
515	0.5771996
518	0.5618032
521	0.5192695
524	0.4388528
527	0.3168242
530	0.1804954
533	0.0982307
536	0.113053
539	0.1978707
542	0.2959487
545	0.3851395
548	0.4599533
551	0.5215342
554	0.5652046
557	0.6014706
560	0.6322761
563	0.6589334
566	0.6778908
569	0.6939957
572	0.7087452
575	0.7224049
578	0.7340362
581	0.7435873
584	0.7526562
587	0.761308
590	0.769609
593	0.776633
596	0.783222
599	0.7895641
602	0.7956911
605	0.8015503
608	0.8061721
611	0.810644
614	0.814976
617	0.8191687
620	0.8232001
623	0.8259926
626	0.8286716
629	0.8312261
632	0.8336386
635	0.8358889
638	0.8384562
641	0.8410196
644	0.8433672
647	0.845467
650	0.8472791
653	0.8492046
656	0.8533393
659	0.8570836
662	0.8603845
665	0.8631606
668	0.865288
671	0.866695
674	0.8673241
677	0.8665289
680	0.8636851
683	0.8577634
686	0.8469488
689	0.8278363
692	0.792825
695	0.7316707
698	0.6221108
701	0.4316305
704	0.1734037
707	0.0496097
710	0.1956679
713	0.4043208
716	0.5574918
719	0.6562211
722	0.7202239
725	0.7633815
728	0.7937896
731	0.8154101
734	0.8313825
737	0.8439109
740	0.8539942
743	0.8622919
746	0.8692531
749	0.8751923
752	0.880297
755	0.8846271
758	0.8884736
761	0.8919237
764	0.8950443
767	0.8978916
770	0.900508
773	0.9029313
776	0.9052147
779	0.9074004
782	0.9094544
785	0.9113924
788	0.9132276
791	0.914971
794	0.9166322
797	0.9182193
800	0.9197333
803	0.9210204
806	0.9222598
809	0.9234557
812	0.9246093
815	0.9257248
818	0.9268062
821	0.927857
824	0.9288804
827	0.9298405
830	0.9305678
833	0.9312768
836	0.9319716
839	0.9326533
842	0.9333246
845	0.9339853
848	0.934635
851	0.9352744
854	0.9359041
857	0.9364815
860	0.937028
863	0.9375654
866	0.938097
869	0.9386231
872	0.939146
875	0.9396651
878	0.9401797
881	0.9406891
884	0.9411929
887	0.9417258
890	0.9422917
893	0.9428525
896	0.9434084
899	0.9439597
902	0.9445085
905	0.945054
908	0.9455958
911	0.9461334
914	0.9466662
917	0.9471961
920	0.9477046
923	0.9481972
926	0.948689
929	0.9491802
932	0.9496697
935	0.9501585
938	0.9506478
941	0.9511379
944	0.9516292
947	0.9521221
950	0.9526169
953	0.9531162
956	0.9535524
959	0.953973
962	0.9543985
965	0.9548301
968	0.9552689
971	0.9557152
974	0.9561695
977	0.9566319
980	0.9571027
983	0.9575836
986	0.9580725
989	0.9585688
992	0.95907
995	0.9595791
998	0.9600887
1000	0.9604262

File: reflectance_sio2_1000_au_35.txt.tsv
Wavelength (nm)	Reflectance
200	0.0789704
203	0.1441206
206	0.3196611
209	0.3345255
212	0.1682622
215	0.0817819
218	0.2721483
221	0.3679716
224	0.2855633
227	0.1107986
230	0.1323321
233	0.3059531
236	0.3862805
239	0.3370787
242	0.1906065
245	0.1037526
248	0.2147123
251	0.3587801
254	0.4172698
257	0.3822788
260	0.2676164
263	0.1457869
266	0.1550365
269	0.2781482
272	0.3859983
275	0.4301101
278	0.4102264
281	0.3322785
284	0.2189208
287	0.1417553
290	0.1704433
293	0.2711833
296	0.3664879
299	0.4212865
302	0.4319705
305	0.4012872
308	0.3335787
311	0.2422532
314	0.1619704
317	0.1383471
320	0.1837449
323	0.2635352
326	0.3388006
329	0.3909394
332	0.4154076
335	0.4127627
338	0.3846127
341	0.3334601
344	0.2652202
347	0.1934836
350	0.1396793
353	0.1247158
356	0.1528745
359	0.2096917
362	0.2746055
365	0.332035
368	0.3753333
371	0.4016324
374	0.4110748
377	0.4040274
380	0.3813642
383	0.3445982
386	0.2962694
389	0.2413857
392	0.1882588
395	0.1477111
398	0.1295833
401	0.1379567
404	0.1687266
407	0.2131857
410	0.2614504
413	0.306561
416	0.343888
419	0.3717629
422	0.3894137
425	0.3970091
428	0.3950479
431	0.3838455
434	0.3641434
437	0.3363772
440	0.3017091
443	0.2623807
446	0.2204861
449	0.1791551
452	0.1424201
455	0.1140342
458	0.0967021
461	0.0917742
464	0.0986963
467	0.1156106
470	0.1401198
473	0.1686598
476	0.1986021
479	0.2287334
482	0.2575718
485	0.2839575
488	0.3094378
491	0.3332847
494	0.3539667
497	0.3732999
500	0.3926424
503	0.4085516
506	0.4211618
509	0.4324138
512	0.4403397
515	0.445159
518	0.4471476
521	0.4461501
524	0.442764
527	0.4380403
530	0.4305233
533	0.4231042
536	0.4180823
539	0.4174724
542	0.4170465
545	0.4242136
548	0.4399463
551	0.4640395
554	0.4892418
557	0.5194241
560	0.5525711
563	0.5866746
566	0.6143801
569	0.6395548
572	0.6629632
575	0.6842565
578	0.7021871
581	0.7165758
584	0.7289473
587	0.7395092
590	0.748335
593	0.7554467
596	0.7609923
599	0.7650846
602	0.7678138
605	0.7692338
608	0.7688672
611	0.7673137
614	0.7646278
617	0.7607823
620	0.7557635
623	0.7481477
626	0.7394293
629	0.7296712
632	0.7188684
635	0.7070927
638	0.6959283
641	0.6847854
644	0.6733676
647	0.661826
650	0.6505753
653	0.6413772
656	0.6403648
659	0.6414428
662	0.6449758
665	0.6512634
668	0.6603671
671	0.6724465
674	0.6877257
677	0.7046986
680	0.7227545
683	0.7413715
686	0.7598858
689	0.7776428
692	0.7922439
695	0.8061028
698	0.8190765
701	0.8310885
704	0.8421136
707	0.8521636
710	0.8609328
713	0.8685416
716	0.8754011
719	0.8815649
722	0.8870961
725	0.8920395
728	0.8964405
731	0.9000968
734	0.903131
737	0.9057844
740	0.9080861
743	0.9100624
746	0.9117364
749	0.9131284
752	0.9142295
755	0.9149716
758	0.9154844
761	0.9157804
764	0.9158721
767	0.915765
770	0.9154664
773	0.9149741
776	0.9143148
779	0.913505
782	0.912529
785	0.9113939
788	0.9101079
791	0.9086804
794	0.9071222
797	0.9054466
800	0.9036632
803	0.9016238
806	0.8995173
809	0.8973687
812	0.8952175
815	0.8930905
818	0.8910183
821	0.889035
824	0.8871786
827	0.8854496
830	0.8836227
833	0.8820612
836	0.8807924
839	0.8798511
842	0.8792631
845	0.879053
848	0.8792328
851	0.879803
854	0.8807538
857	0.8819983
860	0.8835411
863	0.8853753
866	0.8874716
869	0.8897896
872	0.8922976
875	0.8949505
878	0.8977032
881	0.9005132
884	0.9033411
887	0.9062279
890	0.909152
893	0.912021
896	0.9148179
899	0.9175291
902	0.9201537
905	0.9226786
908	0.925094
911	0.9273932
914	0.929572
917	0.9316389
920	0.9335727
923	0.9353893
926	0.9371015
929	0.9387125
932	0.9402208
935	0.9416334
938	0.9429565
941	0.9441939
944	0.9453493
947	0.9464263
950	0.9474283
953	0.9483627
956	0.9491439
959	0.949836
962	0.9504672
965	0.9510415
968	0.9515622
971	0.9520312
974	0.9524505
977	0.952822
980	0.9531472
983	0.9534283
986	0.9536656
989	0.9538604
992	0.9540146
995	0.9541409
998	0.9542284
1000	0.9542656

File: trans_SiO2_Au10nm_Air10000nm_Au10nm_SiO2.txt
Wavelength (nm)	Transmittance
210	0.4035886
218	0.4391563
226	0.3603309
234	0.3519504
242	0.3845709
250	0.4577204
258	0.3323759
266	0.374491
274	0.4332381
282	0.4308817
290	0.4286811
298	0.3918067
306	0.3123238
314	0.3618862
322	0.4172852
330	0.3538099
338	0.4179453
346	0.4582772
354	0.3642209
362	0.4120406
370	0.500521
378	0.5188498
386	0.4939336
394	0.4753852
402	0.4766113
410	0.4981662
418	0.5349158
426	0.5650045
434	0.5446384
442	0.4795166
450	0.4507534
458	0.5244953
466	0.6504112
474	0.5792697
482	0.5370502
490	0.7003464
498	0.6581157
506	0.6067112
514	0.7839591
522	0.6109467
530	0.7456199
538	0.662267
546	0.6779578
554	0.6988605
562	0.6447756
570	0.7074222
578	0.6639865
586	0.687391
594	0.726946
602	0.6382794
610	0.8167472
618	0.605128
626	0.8322172
634	0.6636341
642	0.6957584
650	0.8229745
658	0.6034254
666	0.7635245
674	0.7090747
682	0.5499522
690	0.7433037
698	0.6335922
706	0.499489
714	0.6828277
722	0.6272973
730	0.4568308
738	0.5729181
746	0.6693763
754	0.4557821
762	0.4473599
770	0.631428
778	0.5470906
786	0.3944546
794	0.4431301
802	0.6096322
810	0.4931089
818	0.3632787
826	0.3993963
834	0.5563895
842	0.5080552
850	0.3592038
858	0.3411606
866	0.4498972
874	0.546686
882	0.4160361
890	0.3176082
898	0.3281976
906	0.4365386
914	0.5113732
922	0.3945353
930	0.299085
938	0.2910909
946	0.3637237
954	0.4696574
962	0.432434
970	0.3189042
978	0.2659116
986	0.2789478
994	0.3538692
1002	0.4433914
1010	0.4100195
1018	0.3089615
1026	0.251821
1034	0.2471166
1042	0.2898152
1050	0.3710565
1058	0.4128221
1066	0.3465909
1074	0.2646727
1082	0.2227255
1090	0.2195514
1098	0.2520102
1106	0.3162844
1114	0.3704971
1122	0.3436488
1130	0.2703943
1138	0.2163261
1146	0.1931781
1154	0.1968837
1162	0.2262872
1170	0.2787839
1178	0.3276026
1186	0.3219721
1194	0.2675287
1202	0.2148326
1210	0.1839647
1218	0.1741683
1226	0.1831652
1234	0.2110684
1242	0.2571751
1250	0.3070646
1258	0.321166
1266	0.2881606
1274	0.2409715
1282	0.2052566
1290	0.1864457
1298	0.1833692
1306	0.1952539
1314	0.2226273
1322	0.2653238
1330	0.3147963
1338	0.3470275
1346	0.3391588
1354	0.3002761
1362	0.2569127
1370	0.2242565
1378	0.2053427
1386	0.1970238
1394	0.2010198
1402	0.2171189
1410	0.2453962
1418	0.2836756
1426	0.3228496
1434	0.345067
1442	0.3361524
1450	0.3021026
1458	0.2612125
1466	0.2257396
1474	0.2007049
1482	0.1860309
1490	0.180627
1498	0.1837459
1506	0.1952176
1514	0.2150884
1522	0.2425888
1530	0.2741268
1538	0.301177
1546	0.3121891
1554	0.3011865
1562	0.2736443
1570	0.2407699
1578	0.2110659
1586	0.1880632
1594	0.1722655
1602	0.1630999
1610	0.159912
1618	0.1623072
1626	0.1701886
1634	0.1836128
1642	0.2024224
1650	0.2255432
1658	0.2499316
1666	0.269981
1674	0.2789756
1682	0.2731683
1690	0.2547774
1698	0.2300396
1706	0.2049865
1714	0.1832051
1722	0.1660335
1730	0.1535745
1738	0.1454733
1746	0.1413211
1754	0.1408162
1762	0.1438094
1770	0.1502813
1778	0.1603134
1786	0.1738004
1794	0.1902937
1802	0.2085784
1810	0.2262823
1818	0.2399694
1826	0.246074
1834	0.2426959
1842	0.2307745
1850	0.2134551
1858	0.1943017
1866	0.1760118
1874	0.1600865
1882	0.1470906
1890	0.1370639
1898	0.1298245
1906	0.1251356
1914	0.1227875
1922	0.1226413
1930	0.1246221
1938	0.1287133
1946	0.1349275
1954	0.143266
1962	0.153638
1970	0.1657443
1978	0.1789458
1986	0.1920935
1994	0.2035559
2002	0.2114456
2010	0.2141656
2018	0.2111136
2026	0.2028569
2034	0.1909548
2042	0.1772544
2050	0.1633473
2058	0.1503464
2066	0.1388502
2074	0.1291088
2082	0.1211546
2090	0.114907
2098	0.1102455
2106	0.1070485
2114	0.1052124
2122	0.1046602
2130	0.105344
2138	0.1072392
2146	0.1103424
2154	0.1146578
2162	0.1201834
2170	0.1268848
2178	0.1346656
2186	0.1433265
2194	0.1525057
2202	0.161652
2210	0.1700327
2218	0.1767587
2226	0.1809983
2234	0.1821515
2242	0.1800189
2250	0.1748627
2258	0.1673633
2266	0.1583738
2274	0.1487019
2282	0.1390329
2290	0.1298599
2298	0.1214873
2306	0.1140618
2314	0.1076389
2322	0.1022094
2330	0.0977292
2338	0.0941407
2346	0.0913845
2354	0.0894063
2362	0.0881599
2370	0.0876093
2378	0.08773
2386	0.0885048
2394	0.0899257
2400	0.0914137

File: transmittance_sio2.txt.tsv
Wavelength (nm)	Transmittance
200	0.8825804
207	0.9212041
214	0.9613705
221	0.9902202
228	0.9999938
235	0.9926385
242	0.9738363
249	0.9496516
256	0.9249508
263	0.9027648
270	0.8846661
277	0.8712372
284	0.86246
291	0.8579834
298	0.857328
305	0.8599383
312	0.8652336
319	0.8727081
326	0.88182
333	0.8920868
340	0.9030966
347	0.9144948
354	0.9259054
361	0.9370386
368	0.9476397
375	0.9574931
382	0.9664184
389	0.9743675
396	0.981259
403	0.9870341
410	0.9916883
417	0.9952619
424	0.9977939
431	0.999336
438	0.9999735
445	0.9997839
452	0.9988513
459	0.99726
466	0.9951032
473	0.9924524
480	0.9893969
487	0.9860008
494	0.9823306
501	0.9784488
508	0.9744141
515	0.9702598
522	0.9660469
529	0.9618003
536	0.9575572
543	0.9533384
550	0.9491755
557	0.9450832
564	0.9410778
571	0.9371729
578	0.9333796
585	0.9297022
592	0.9261541
599	0.9227377
606	0.9194473
613	0.9162952
620	0.9132818
627	0.9104054
634	0.9076503
641	0.9050438
648	0.9025632
655	0.9002085
662	0.8979803
669	0.89588
676	0.8938867
683	0.8920243
690	0.8902708
697	0.8886168
704	0.8870685
711	0.8856224
718	0.8842748
725	0.8830376
732	0.8818929
739	0.8808208
746	0.8798333
753	0.8789271
760	0.878099
767	0.8773207
774	0.8766278
781	0.8760143
788	0.8754667
795	0.8749821
802	0.8745578
809	0.8741911
816	0.8738557
823	0.8735803
830	0.8733711
837	0.8731811
844	0.8730529
851	0.8729807
858	0.8729501
865	0.8729379
872	0.8729631
879	0.8730456
886	0.8731362
893	0.8732546
900	0.8734037
907	0.8736129
914	0.8738322
921	0.874069
928	0.8743576
935	0.8746476
942	0.8749512
949	0.875276
956	0.875648
963	0.8760302
970	0.8764124
977	0.8768115
984	0.877245
991	0.8777029
998	0.8781477
1005	0.878606
1012	0.879077
1019	0.8795599
1026	0.8800815
1033	0.8806044
1040	0.8811189
1047	0.8816426
1054	0.8821749
1061	0.8827152
1068	0.8832629
1075	0.8838403
1082	0.8844241
1089	0.884991
1096	0.8855634
1103	0.8861408
1110	0.8867228
1117	0.8873089
1124	0.8878988
1131	0.8884967
1138	0.8891244
1145	0.8897324
1152	0.8903338
1159	0.8909373
1166	0.8915426
1173	0.8921494
1180	0.8927574
1187	0.8933664
1194	0.8939762
1201	0.8945909
1208	0.8952319
1215	0.8958511
1222	0.8964615
1229	0.8970716
1236	0.8976812
1243	0.8982901
1250	0.8988982
1257	0.8995052
1264	0.9001112
1271	0.9007201
1278	0.9013527
1285	0.9019626
1292	0.9025625
1299	0.9031606
1306	0.9037568
1313	0.9043511
1320	0.9049432
1327	0.9055332
1334	0.9061209
1341	0.9067062
1348	0.9072892
1355	0.9078897
1362	0.9084874
1369	0.9090625
1376	0.9096349
1383	0.9102045
1390	0.9107713
1397	0.9113353
1404	0.9118964
1411	0.9124585
1418	0.9130406
1425	0.9136003
1432	0.9141493
1439	0.9146951
1446	0.9152379
1453	0.9157775
1460	0.916314
1467	0.9168473
1474	0.9173774
1481	0.9179079
1488	0.9184573
1495	0.9189849
1502	0.9195018
1509	0.9200155
1516	0.9205259
1523	0.921033
1530	0.9215369
1537	0.9220623
1544	0.92257
1551	0.9230637
1558	0.9235542
1565	0.9240414
1572	0.9245252
1579	0.9250058
1586	0.9255036
1593	0.9259912
1600	0.9264617
1607	0.926929
1614	0.9273929
1621	0.9278537
1628	0.9283112
1635	0.9287819
1642	0.9292493
1649	0.929697
1656	0.9301414
1663	0.9305826
1670	0.9310206
1677	0.931478
1684	0.9319191
1691	0.9323475
1698	0.9327728
1705	0.9332107
1712	0.9336453
1719	0.9340612
1726	0.9344739
1733	0.9348836
1740	0.9352903
1747	0.9357153
1754	0.936125
1761	0.9365225
1768	0.9369171
1775	0.9373236
1782	0.9377271
1789	0.9381127
1796	0.9384955
1803	0.9388841
1810	0.9392814
1817	0.9396555
1824	0.9400267
1831	0.940398
1838	0.9407836
1845	0.941152
1852	0.9415121
1859	0.9418694
1866	0.9422407
1873	0.9426036
1880	0.9429527
1887	0.9432992
1894	0.9436539
1901	0.9440114
1908	0.9443499
1915	0.9446993
1922	0.945046
1929	0.9453768
1936	0.9457208
1943	0.946057
1950	0.9463802
1957	0.9467009
1964	0.9470295
1971	0.9473608
1978	0.9476741
1985	0.9479979
1992	0.9483191
1999	0.9486252
2000	0.9486688