Folder: pistachio/data/filmetrics (part 2)

File: transmittance_SiO2_100_Au_35_Air_5000.txt.tsv
Wavelength (nm)	Transmittance
200	0.0040135
203	0.0030524
206	0.0061113
209	0.0088992
212	0.0038097
215	0.0060012
218	0.0098118
221	0.0037865
224	0.0103407
227	0.0053299
230	0.0051714
233	0.0090844
236	0.0036427
239	0.0117082
242	0.0030355
245	0.0115824
248	0.0026147
251	0.0097487
254	0.0021995
257	0.0064812
260	0.0022382
263	0.0032389
266	0.0032129
269	0.0016778
272	0.0064389
275	0.0013373
278	0.0034981
281	0.002268
284	0.0013024
287	0.0059297
290	0.0014172
293	0.0015846
296	0.0056148
299	0.0013044
302	0.0017982
305	0.0060015
308	0.0014986
311	0.0017644
314	0.0072018
317	0.0021656
320	0.0016997
323	0.005572
326	0.0048847
329	0.0020558
332	0.0030826
335	0.0110785
338	0.0040699
341	0.00259
344	0.0047991
347	0.0137515
350	0.0048301
353	0.0031705
356	0.0052427
359	0.015927
362	0.00719
365	0.0037927
368	0.0044669
371	0.0115391
374	0.0143518
377	0.0052911
380	0.0039396
383	0.0059024
386	0.016699
389	0.0140995
392	0.0057876
395	0.0045201
398	0.0064548
401	0.0166724
404	0.0216623
407	0.0086413
410	0.0056674
413	0.0063028
416	0.0117971
419	0.0304542
422	0.0211433
425	0.0098752
428	0.0074334
431	0.008703
434	0.0157009
437	0.0385592
440	0.0354418
443	0.0167996
446	0.0115451
449	0.0115282
452	0.0163083
455	0.0328671
458	0.0692353
461	0.0507138
464	0.0268164
467	0.019262
470	0.0187416
473	0.0241807
476	0.0418233
479	0.090037
482	0.1169607
485	0.0648891
488	0.0381537
491	0.0291674
494	0.0286614
497	0.0353391
500	0.0556642
503	0.1185575
506	0.2123559
509	0.1121301
512	0.0516498
515	0.0320549
518	0.0254573
521	0.0250779
524	0.0313638
527	0.0528128
530	0.1356738
533	0.2942745
536	0.096197
539	0.0369281
542	0.0210914
545	0.0157372
548	0.0145017
551	0.0163351
554	0.0236174
557	0.0472709
560	0.164757
563	0.2971002
566	0.0698244
569	0.0291089
572	0.0177811
575	0.0137579
578	0.0127939
581	0.0140275
584	0.0180723
587	0.028289
590	0.0586227
593	0.1934642
596	0.461489
599	0.1232126
602	0.048289
605	0.0277042
608	0.0199809
611	0.0169495
614	0.0164158
617	0.0179753
620	0.0223757
623	0.0327596
626	0.0586377
629	0.1428848
632	0.4820899
635	0.3652141
638	0.1187115
641	0.0561575
644	0.0347234
647	0.0255754
650	0.0214314
653	0.0197529
656	0.0188847
659	0.0199903
662	0.0236947
665	0.0323192
668	0.0537964
671	0.1243693
674	0.464004
677	0.2872307
680	0.072682
683	0.0300028
686	0.0164188
689	0.0107054
692	0.0081021
695	0.0067487
698	0.0061093
701	0.0059815
704	0.0063431
707	0.0073464
710	0.0095073
713	0.0142549
716	0.0266861
719	0.0765028
722	0.4666134
725	0.119198
728	0.0299096
731	0.0131475
734	0.0075566
737	0.0050792
740	0.0038043
743	0.0030967
746	0.0027017
749	0.0025074
752	0.00247
755	0.0025904
758	0.0028926
761	0.0034695
764	0.0045429
767	0.0066926
770	0.0117942
773	0.0288344
776	0.1560165
779	0.185457
782	0.0289525
785	0.0106499
788	0.005538
791	0.0034613
794	0.0024331
797	0.001861
800	0.0015208
803	0.0013183
806	0.0011992
809	0.0011405
812	0.0011322
815	0.0011736
818	0.0012728
821	0.0014511
824	0.0017528
827	0.0022762
830	0.0032678
833	0.0053864
836	0.0112166
839	0.0387423
842	0.3761473
845	0.0417539
848	0.0110077
851	0.0049675
854	0.0028553
857	0.0018899
860	0.0013741
863	0.0010701
866	0.0008793
869	0.0007555
872	0.0006746
875	0.0006234
878	0.000595
881	0.0005856
884	0.0005943
887	0.0006211
890	0.0006696
893	0.000748
896	0.00087
899	0.001061
902	0.001372
905	0.0019167
908	0.0029896
911	0.0055636
914	0.0145633
917	0.0959755
920	0.0862923
923	0.0132034
926	0.0049196
929	0.0025547
932	0.0015762
935	0.0010826
938	0.0008011
941	0.0006267
944	0.0005125
947	0.0004346
950	0.0003802
953	0.000342
956	0.0003166
959	0.0003004
962	0.0002913
965	0.0002886
968	0.000292
971	0.0003019
974	0.000319
977	0.0003451
980	0.0003829
983	0.000437
986	0.0005152
989	0.0006313
992	0.0008112
995	0.0011078
998	0.0016483
1000	0.0022991

File: transmittance_sio2_100_au_35_x2_air_1000.txt.tsv
Wavelength (nm)	Transmittance
200	0.003823
203	0.0072475
206	0.0098329
209	0.006806
212	0.004457
215	0.003673
218	0.0038603
221	0.0050423
224	0.0082564
227	0.0135386
230	0.0125372
233	0.0073184
236	0.0045047
239	0.0033211
242	0.0029452
245	0.0030813
248	0.0037696
251	0.0053037
254	0.0082094
257	0.0096803
260	0.006365
263	0.0035785
266	0.0022445
269	0.0016341
272	0.0013744
275	0.0013112
278	0.0013977
281	0.0016686
284	0.0022448
287	0.0033522
290	0.0050928
293	0.006223
296	0.005127
299	0.0034947
302	0.0024503
305	0.0018804
308	0.0015825
311	0.0014455
314	0.0014188
317	0.0014951
320	0.0016885
323	0.002026
326	0.0025675
329	0.0033997
332	0.0047017
335	0.0066851
338	0.0093931
341	0.0120558
344	0.0130526
347	0.0118346
350	0.0097488
353	0.0078556
356	0.0064554
359	0.0054911
362	0.0048202
365	0.0043779
368	0.0040502
371	0.003868
374	0.0038021
377	0.0038645
380	0.0040625
383	0.004397
386	0.0048971
389	0.005604
392	0.006588
395	0.0079617
398	0.009877
401	0.0125219
404	0.016101
407	0.0205824
410	0.0254978
413	0.029463
416	0.0310193
419	0.0297556
422	0.0268198
425	0.0234887
428	0.0204723
431	0.018103
434	0.0162575
437	0.0149575
440	0.0140576
443	0.013455
446	0.0132645
449	0.013268
452	0.0134758
455	0.0138967
458	0.0144952
461	0.0152871
464	0.0162897
467	0.0175282
470	0.0189592
473	0.0206554
476	0.0227021
479	0.0250654
482	0.0278673
485	0.0312545
488	0.0349065
491	0.0390375
494	0.0441412
497	0.0498228
500	0.0556642
503	0.0631797
506	0.0729304
509	0.084161
512	0.0991554
515	0.1194022
518	0.1458034
521	0.1796789
524	0.222185
527	0.26726
530	0.2934681
533	0.2806198
536	0.2334218
539	0.1770106
542	0.1290212
545	0.0944314
548	0.0704162
551	0.053732
554	0.0428978
557	0.0350283
560	0.0291722
563	0.024724
566	0.0221694
569	0.0203349
572	0.0188711
575	0.0176979
578	0.016868
581	0.0163517
584	0.0159748
587	0.0157207
590	0.0155754
593	0.0154186
596	0.0153394
599	0.0153491
602	0.0154432
605	0.0156194
608	0.0158731
611	0.0162102
614	0.0166335
617	0.0171482
620	0.0177658
623	0.0187296
626	0.0198286
629	0.0210796
632	0.0225032
635	0.0241237
638	0.0255301
641	0.0269746
644	0.0286441
647	0.0305744
650	0.0328097
653	0.0350772
656	0.0358225
659	0.0368974
662	0.0383593
665	0.0402893
668	0.0428034
671	0.0459315
674	0.049658
677	0.0546474
680	0.0614015
683	0.0707097
686	0.0838988
689	0.1033319
692	0.1340872
695	0.1822315
698	0.2596826
701	0.3788376
704	0.5118665
707	0.5262305
710	0.3871151
713	0.244828
716	0.1536873
719	0.1004756
722	0.0688315
725	0.0491602
728	0.0363597
731	0.0278515
734	0.0219531
737	0.0176515
740	0.0144348
743	0.0119769
746	0.0100636
749	0.00855
752	0.0073431
755	0.00639
758	0.0056036
761	0.0049486
764	0.0043981
767	0.0039317
770	0.0035335
773	0.0031912
776	0.0028953
779	0.0026383
782	0.0024138
785	0.0022166
788	0.0020427
791	0.0018887
794	0.0017519
797	0.0016298
800	0.0015208
803	0.0014287
806	0.0013457
809	0.0012705
812	0.0012025
815	0.0011407
818	0.0010845
821	0.0010332
824	0.0009862
827	0.0009444
830	0.0009122
833	0.0008827
836	0.0008557
839	0.000831
842	0.0008082
845	0.0007874
848	0.0007683
851	0.0007509
854	0.000735
857	0.0007213
860	0.0007093
863	0.0006987
866	0.0006892
869	0.0006808
872	0.0006735
875	0.0006672
878	0.0006618
881	0.0006575
884	0.0006542
887	0.0006509
890	0.0006475
893	0.000645
896	0.0006435
899	0.0006429
902	0.0006433
905	0.0006446
908	0.000647
911	0.0006503
914	0.0006548
917	0.0006604
920	0.0006675
923	0.0006761
926	0.0006859
929	0.0006971
932	0.0007098
935	0.0007241
938	0.0007401
941	0.000758
944	0.0007778
947	0.0007999
950	0.0008243
953	0.0008514
956	0.0008847
959	0.0009226
962	0.0009647
965	0.0010114
968	0.0010634
971	0.0011214
974	0.0011864
977	0.0012594
980	0.0013418
983	0.0014352
986	0.0015415
989	0.0016634
992	0.001804
995	0.0019656
998	0.0021546
1000	0.0022991

File: transmittance_sio2_1000_au_35.txt.tsv
Wavelength (nm)	Transmittance
200	0.074941
203	0.0726382
206	0.0601422
209	0.0590194
212	0.0732252
215	0.0806942
218	0.0640585
221	0.0554277
224	0.062812
227	0.0780033
230	0.0755898
233	0.0602794
236	0.0529024
239	0.0565775
242	0.0685293
245	0.0752186
248	0.0650805
251	0.0519256
254	0.0462497
257	0.0484023
260	0.056853
263	0.0658001
266	0.0644152
269	0.0545016
272	0.0461361
275	0.0427679
278	0.0442424
281	0.0501681
284	0.058956
287	0.065267
290	0.0636561
293	0.0565286
296	0.0498182
299	0.046315
302	0.0464047
305	0.0500287
308	0.0570566
311	0.0665456
314	0.0755321
317	0.0799309
320	0.078255
323	0.0730988
326	0.0679579
329	0.0646192
332	0.0639405
335	0.0661426
338	0.0713528
341	0.0794454
344	0.0898833
347	0.100841
350	0.109781
353	0.113756
356	0.1120162
359	0.1062405
362	0.0988567
365	0.0921632
368	0.086758
371	0.0836285
374	0.0827765
377	0.0843692
380	0.0883793
383	0.0945502
386	0.1025812
389	0.1117334
392	0.1207995
395	0.1282218
398	0.1324672
401	0.132807
404	0.1298286
407	0.1245849
410	0.1187051
413	0.1131081
416	0.1086985
419	0.1056981
422	0.104426
425	0.1048998
428	0.1070619
431	0.1111307
434	0.116847
437	0.1245004
440	0.1338717
443	0.144526
446	0.1569154
449	0.1697231
452	0.1822685
455	0.1938243
458	0.2033887
461	0.2104798
464	0.2149859
467	0.2171051
470	0.2173039
473	0.2163376
476	0.214786
479	0.2135508
482	0.2127858
485	0.2126285
488	0.2119792
491	0.2113951
494	0.2119216
497	0.2119274
500	0.2101007
503	0.2097487
506	0.2109296
509	0.2107859
512	0.2122786
515	0.2154876
518	0.218945
521	0.2224187
524	0.2274093
527	0.2335917
530	0.2398033
533	0.2460366
536	0.251788
539	0.2561844
542	0.2583544
545	0.2573089
548	0.2525904
551	0.2441804
554	0.2346062
557	0.2226459
560	0.2091763
563	0.1950873
566	0.1847203
569	0.1754657
572	0.1667692
575	0.1588363
578	0.1522879
581	0.1472639
584	0.1431101
587	0.1397614
590	0.1372205
593	0.1349692
596	0.1334356
599	0.1326731
602	0.1326576
605	0.1333616
608	0.1347629
611	0.1368763
614	0.1396881
617	0.1432331
620	0.1475404
623	0.1535682
626	0.1603639
629	0.1679078
632	0.1762209
635	0.1852762
638	0.1934602
641	0.201478
644	0.2097455
647	0.2181686
650	0.2264806
653	0.2331888
656	0.2326537
659	0.23078
662	0.2273547
665	0.2222102
668	0.2153333
671	0.2064845
674	0.1953027
677	0.1832285
680	0.1706616
683	0.1579356
686	0.1454597
689	0.1336415
692	0.1241135
695	0.1151355
698	0.1067831
701	0.099091
704	0.0920629
707	0.0856809
710	0.0801252
713	0.0753098
716	0.0709731
719	0.0670772
722	0.0635795
725	0.0604484
728	0.0576528
731	0.0552978
734	0.0533089
737	0.0515493
740	0.0499995
743	0.0486417
746	0.0474605
749	0.046442
752	0.0455942
755	0.0449694
758	0.0444705
761	0.0440892
764	0.0438171
767	0.0436498
770	0.043582
773	0.0436132
776	0.0437358
779	0.0439458
782	0.0442372
785	0.0446053
788	0.0450449
791	0.0455504
794	0.0461154
797	0.0467326
800	0.0473964
803	0.0481783
806	0.048985
809	0.049804
812	0.0506162
815	0.0514085
818	0.0521668
821	0.052875
824	0.0535159
827	0.0540923
830	0.0547217
833	0.055221
836	0.0555792
839	0.0557818
842	0.0558189
845	0.0556813
848	0.0553656
851	0.0548738
854	0.0542127
857	0.0534196
860	0.0524959
863	0.051449
866	0.0502934
869	0.0490486
872	0.0477298
875	0.0463578
878	0.0449532
881	0.043535
884	0.0421205
887	0.0406876
890	0.0392455
893	0.0378393
896	0.036476
899	0.0351608
902	0.0338935
905	0.032679
908	0.0315208
911	0.030421
914	0.0293807
917	0.0283956
920	0.0274727
923	0.0266048
926	0.0257871
929	0.0250176
932	0.0242963
935	0.0236198
938	0.022985
941	0.0223898
944	0.0218323
947	0.0213106
950	0.0208229
953	0.0203658
956	0.019979
959	0.019632
962	0.0193113
965	0.0190151
968	0.0187418
971	0.0184905
974	0.0182601
977	0.0180497
980	0.0178584
983	0.0176853
986	0.01753
989	0.0173918
992	0.0172697
995	0.0171542
998	0.0170541
1000	0.0169957

File: transmittance_SiO2_Au10_Air10000_fpi.txt.tsv
Wavelength (nm)	Transmittance
200	0.2296616
233	0.2572863
266	0.1305776
299	0.2271432
332	0.1365769
365	0.2740771
398	0.1767437
431	0.1849418
464	0.349699
497	0.3784927
530	0.69374
563	0.4892671
596	0.5806355
629	0.8337495
662	0.3580995
695	0.8464839
728	0.2606543
761	0.1474348
794	0.1280071
827	0.1076597
860	0.0848697
893	0.0779668
926	0.1428698
959	0.634688
992	0.0610067
1025	0.0595869
1058	0.3692236
1091	0.0313629
1124	0.441983
1157	0.0243834
1190	0.41837
1223	0.0195912
1256	0.2578168
1289	0.0283256
1322	0.0388069
1355	0.2261134
1388	0.0270506
1421	0.0556995
1454	0.1884519
1487	0.0238031
1520	0.0300956
1553	0.5160337
1586	0.0334597
1619	0.0162867
1652	0.0314034
1685	0.5300325
1718	0.0297737
1751	0.0128176
1784	0.0153838
1817	0.0618111
1850	0.163303
1883	0.0184569
1916	0.00963
1949	0.0101885
1982	0.0221048
2015	0.2388368
2048	0.0486184
2081	0.0119173
2114	0.0070481
2147	0.0067411
2180	0.0100062
2213	0.028565
2246	0.3706959
2279	0.0348278
2312	0.009927
2345	0.0055818
2378	0.0045025
2411	0.0047987
2444	0.0068181
2477	0.0145267
2510	0.0774975
2543	0.1682448
2576	0.0243996
2609	0.0103093
2642	0.0066675
2675	0.0055038
2708	0.0054296
2741	0.0062568
2774	0.0084506
2807	0.0138232
2840	0.0299486
2873	0.1085917
2906	0.3783773
2939	0.0830799
2972	0.0307122
3005	0.0172653
3038	0.0122009
3071	0.0100136
3104	0.0091926
3137	0.0092619
3170	0.0101548
3203	0.0121025
3236	0.0157759
3269	0.0228469
3302	0.0379154
3335	0.0763801
3368	0.2011038
3401	0.446469
3434	0.2263488
3467	0.0950766
3500	0.0519492
3533	0.0342159
3566	0.0255519
3599	0.0208893
3632	0.0183126
3665	0.0169963
3698	0.0165667
3731	0.0168736
3764	0.0179066
3797	0.0197764
3830	0.0227394
3863	0.0272761
3896	0.0342641
3929	0.0453576
3962	0.0638525
3995	0.0967527
4028	0.1595153
4061	0.2814256
4094	0.4576458
4127	0.48083
4160	0.323671
4193	0.1991216
4226	0.1305822
4259	0.0928684
4292	0.0707914
4325	0.0570709
4358	0.0481469
4391	0.0421712
4424	0.0381266
4457	0.0354259
4490	0.0337193
4523	0.0327966
4556	0.0325357
4589	0.0328746
4622	0.0337972
4655	0.0353268
4688	0.0375261
4721	0.0405018
4754	0.0444148
4787	0.0494986
4820	0.0560863
4853	0.0646544
4886	0.0758883
4919	0.0907825
4952	0.1107893
4985	0.1380228
5018	0.1754834
5051	0.2271079
5084	0.2969371
5117	0.3856521
5150	0.4823343
5183	0.5565244
5216	0.5722453
5249	0.5249221
5282	0.4451261
5315	0.3640097
5348	0.2957723
5381	0.2426227
5414	0.2023015
5447	0.1718141
5480	0.1486077
5513	0.130761
5546	0.1168885
5579	0.1060013
5612	0.0973928
5645	0.0905541
5678	0.0851145
5711	0.0808016
5744	0.0774133
5777	0.0747986
5810	0.0728441
5843	0.0714655
5876	0.0705997
5909	0.0702012
5942	0.0702382
5975	0.0706905
6008	0.0715476
6041	0.0728077
6074	0.0744774
6107	0.0765707
6140	0.0791095
6173	0.0821237
6206	0.0856517
6239	0.0897411
6272	0.0944496
6305	0.0998468
6338	0.1060149
6371	0.1130511
6404	0.1210691
6437	0.1302022
6470	0.1406042
6503	0.152453
6536	0.1659518
6569	0.181329
6602	0.1988384
6635	0.218753
6668	0.241356
6701	0.2669217
6734	0.2956832
6767	0.3277868
6800	0.3632227
6833	0.4017331
6866	0.4427091
6899	0.4850863
6932	0.5272767
6965	0.5671953
6998	0.6024192
7031	0.6305033
7064	0.6494081
7097	0.6579058
7130	0.6558288
7163	0.6440561
7196	0.6242614
7229	0.5985297
7262	0.5689831
7295	0.5375104
7328	0.5056244
7361	0.4744313
7394	0.4446708
7427	0.4167829
7460	0.3909865
7493	0.3673438
7526	0.3458155
7559	0.3263013
7592	0.3086663
7625	0.2927607
7658	0.2784329
7691	0.2655356
7724	0.2539299
7757	0.2434887
7790	0.2340965
7823	0.2256491
7856	0.2180536
7889	0.2112279
7922	0.2050983
7955	0.1996004
7988	0.194677
8021	0.1902775
8054	0.1863574
8087	0.1828777
8120	0.1798035
8153	0.1771043
8186	0.1747534
8219	0.1727268
8252	0.1710037
8285	0.1695659
8318	0.168397
8351	0.1674831
8384	0.1668117
8417	0.166372
8450	0.1661548
8483	0.166152
8516	0.1663568
8549	0.1667633
8582	0.1673669
8615	0.1681634
8648	0.1691501
8681	0.1703243
8714	0.1716846
8747	0.1732301
8780	0.1749603
8813	0.1768754
8846	0.1789764
8879	0.1812646
8912	0.1837415
8945	0.1864097
8978	0.1892718
9011	0.1923309
9044	0.1955906
9077	0.1990548
9110	0.2027276
9143	0.2066141
9176	0.210719
9209	0.2150476
9242	0.2196053
9275	0.2243983
9308	0.2294324
9341	0.2347138
9374	0.2402492
9407	0.2460451
9440	0.2521078
9473	0.2584444
9506	0.2650614
9539	0.2719651
9572	0.2791623
9605	0.2866589
9638	0.2944607
9671	0.3025733
9704	0.3110015
9737	0.3197491
9770	0.3288201
9803	0.3382167
9836	0.34794
9869	0.3579906
9902	0.368367
9935	0.3790662
9968	0.3900832
10000	0.4010641